File: Concrete_Data.csv
Type_of_Coarse_Aggregate,Type_of_Fine_Aggregate,Max_Size_of_Coarse_Aggregate(mm),Passing_0.6_mm_sieve(%),Target_Mean_Strength(MPa),Cement_O.P.C.(kg/m3),W/C_Ratio,Water_Content(kg/m3),Total_Aggregate(kg/m3),Fine_Aggregate(kg/m3),Coarse_Aggregate(kg/m3),Workability_Slump(mm),Hardened_Concrete_Density_(avg.),7_day_str(MPa),28_day_str(MPa),Admix_1,Admix_2,Dos_1(lit),Dos_2(lit),,
Crushed,Natural,40,0,43,365,0.52,225,1870,710,1160,160,2407,21.8,26.3,NA,NA,0,0,,
Crushed,Natural,40,0,40.8,365,0.52,225,1870,710,1160,160,2403,26.3,35.3,NA,NA,0,0,,
Crushed,Natural,20,45.6,38,350,0.53,185,1915,725,1190,120,2475,32.7,44.9,SP,NA,1,0,,
Natural,Natural,20,57.9,38,340,0.49,165,1895,835,1060,190,2412,30.3,41,SP,NA,0.9,0,,
Natural,Natural,20,19.5,38,325,0.51,165,1910,840,1070,170,2404,27,0,SP,NA,1,0,,
Natural,Natural,20,19.5,38,325,0.51,165,1910,840,1070,170,2405,27,35.4,SP,NA,1,0,,
Crushed,Natural,20,39.4,38,340,0.56,190,1895,795,1100,105,2425,31.8,0,SI,NA,0.8,0,,
Crushed,Natural,20,39.4,38,340,0.56,190,1895,795,1100,105,2427,31.8,41.3,SI,NA,0.8,0,,
Crushed,Natural,20,33.4,38,370,0.5,185,1895,795,1100,125,2449,37.8,46.4,CO,NA,0.8,0,,
Crushed,Natural,20,26.1,38,360,0.53,190,1900,780,1120,100,2454,28.2,34.1,NA,NA,0,0,,
Crushed,Natural,20,43.5,38,330,0.5,205,1980,850,1130,135,2483,33.2,0,SP,NA,0.9,0,,
Crushed,Natural,20,43.5,38,330,0.5,165,1980,850,1130,135,2477,33.2,43.1,SP,NA,0.9,0,,
Crushed,Natural,20,24.9,38,350,0.54,190,1900,760,1140,140,2445,31,0,RH,NA,4.2,0,,
Crushed,Natural,20,24.9,38,350,0.54,190,1900,760,1140,140,2449,31,39.3,RH,NA,4.2,0,,
Crushed,Natural,20,42.1,38,345,0.55,190,1905,760,1145,145,2443,33.9,0,RH,NA,1.25,0,,
Crushed,Natural,20,47,38,340,0.53,180,1930,770,1160,120,2449,36.5,0,DO,NA,1,0,,
Crushed,Natural,20,47,38,340,0.53,180,1930,770,1160,120,2449,36.5,34.8,DO,NA,1,0,,
Crushed,Natural,20,49,38,350,0.54,190,1890,715,1175,140,2434,30.9,0,PL,NA,0.8,0,,
Natural,Natural,20,39,38,350,0.51,180,1970,690,1280,110,2406,30.4,37.2,NA,NA,0,0,,
Natural,Natural,20,39,38,350,0.51,180,1870,690,1180,110,2402,30.4,0,NA,NA,0,0,,
Crushed,Natural,20,52.5,38,350,0.57,200,1910,710,1200,125,2453,19,37.6,CO,NA,0.8,0,,
Crushed,Natural,20,45.6,38,350,0.53,185,1915,725,1190,120,2456,32.8,0,NA,NA,0,0,,
Crushed,Natural,20,43,38,350,0.5,180,1910,710,1200,90,2447,33.1,0,NA,NA,0,0,,
Crushed,Natural,20,43,38,350,0.5,180,1910,710,1200,90,2447,33.1,42.6,SP,NA,1,0,,
Crushed,Natural,20,49.5,38,380,0.5,190,1845,610,1235,180,2424,29.1,0,SP,NA,0.9,0,,
Crushed,Natural,20,49.5,38,380,0.5,290,1845,610,1235,180,2424,29.1,41.5,SP,NA,0.9,0,,
Crushed,Natural,20,49.5,38,380,0.5,190,1854,610,1244,180,2423,29.1,41.5,SP,NA,0.9,0,,
Crushed,Natural,20,0,38,350,0.54,190,1885,755,1130,80,2430,25.8,0,NA,NA,0,0,,
Crushed,Natural,20,0,38,350,0.54,190,1885,755,1130,80,2431,25.8,0,NA,NA,0,0,,
Crushed,Natural,20,40,38,400,0.45,180,1840,770,1070,200,2445,36.3,0,R2,NA,1.65,0,,
Crushed,Natural,20,40,38,400,0.45,180,1840,770,1070,200,2450,36.3,46.6,R2,NA,1.65,0,,
Crushed,Natural,20,40,38,400,0.45,180,1840,770,1070,200,2445,36.3,46.6,R2,NA,1.65,0,,
Crushed,Natural,20,76,38,350,0.53,185,1915,595,1320,120,2453,28.5,37.6,SI,NA,1,0,,
Crushed,Natural,20,26.1,38,360,0.53,190,1900,780,1120,100,2453,28.2,0,NA,NA,0,0,,
Crushed,Natural,20,26.3,38,350,0.6,210,1865,745,1120,130,2427,28.3,0,NA,NA,0,0,,
Crushed,Natural,20,26.3,38,350,0.6,210,1865,745,1120,130,2430,28.3,39.3,NA,NA,0,0,,
Crushed,Natural,20,44.5,38,350,0.6,210,1865,710,1155,90,2428,27.8,0,NA,NA,0,0,,
Crushed,Natural,20,44.5,38,350,0.6,210,1865,710,1155,90,2430,27.8,35.8,NA,NA,0,0,,
Crushed,Crushed,20,43.3,38,380,0.55,210,1815,815,1000,120,2403,29.4,34.4,NA,NA,0,0,,
Crushed,Crushed,20,43.3,38,380,0.55,210,1815,815,1000,120,2402,29.4,0,NA,NA,0,0,,
Natural,Natural,40,56.3,38,375,0.48,180,1845,830,1015,220,2407,35.9,43.9,SP,NA,1,0,,
Natural,Natural,40,56.3,38,375,0.48,180,1845,830,1015,220,2407,35.9,43.8,SP,NA,1,0,,
Natural,Natural,40,56.3,38,375,0.48,180,1845,830,1015,220,2406,35.9,0,SP,NA,1,0,,
Crushed,Natural,20,32.4,38,365,0.53,195,1860,835,1025,165,2424,30.2,0,NA,NA,0,0,,
Crushed,Natural,20,32.4,38,365,0.53,195,1860,835,1025,165,2425,31.3,0,NA,NA,0,0,,
Crushed,Natural,40,32.4,38,365,0.53,195,1860,835,1025,165,2430,31.3,41.8,NA,NA,0,0,,
Crushed,Natural,40,32.4,38,365,0.53,195,1860,835,1025,165,2424,30.2,38,NA,NA,0,0,,
Crushed,Natural,20,55,38,400,0.45,180,1870,840,1030,185,2406,33.9,0,SP,NA,1,0,,
Natural,Natural,20,24.3,38,350,0.5,175,1865,820,1045,158,2394,29.8,37.5,KE,NA,0.8,0,,
Natural,Natural,20,24.3,38,350,0.5,175,1865,820,1045,158,2396,29.8,0,KE,NA,0.8,0,,
Crushed,Crushed,40,21.8,38,340,0.56,190,1910,860,1050,140,2445,36.7,50,SI,NA,1.25,0,,
Crushed,Crushed,40,21.8,38,340,0.56,190,1910,860,1050,120,2445,32.5,0,SI,NA,1.25,0,,
Crushed,Crushed,40,21.8,38,340,0.56,190,1910,860,1050,140,2446,36.7,0,SI,NA,1.25,0,,
Crushed,Crushed,40,21.8,38,340,0.56,190,1910,860,1050,120,2447,32.5,43.5,SI,NA,1.25,0,,
Natural,Natural,20,48.9,38,380,0.5,190,1810,760,1050,165,2387,25,0,NA,NA,0,0,,
Natural,Natural,20,48.9,38,380,0.5,190,1810,760,1050,165,2390,25,30,NA,NA,0,0,,
Crushed,Natural,20,26.9,38,350,0.4,190,1920,865,1055,180,2462,30.5,0,SP,NA,0.9,0,,
Natural,Natural,20,57.9,38,340,0.49,165,1895,835,1060,190,2404,30.3,0,SP,NA,1,0,,
Crushed,Natural,20,32.4,38,365,0.47,170,1925,865,1060,220,2456,32.8,0,NA,NA,0,0,,
Crushed,Natural,20,32.4,38,365,0.47,170,1925,865,1060,170,2460,39.2,0,X-,NA,1.5,0,,
Crushed,Natural,20,32.4,38,365,0.47,170,1925,865,1060,170,2455,39.8,49.1,X-,NA,1.5,0,,
Crushed,Natural,20,32.4,38,365,0.47,170,1925,865,1060,220,2453,32.8,39.3,X-,NA,0.7,0,,
Natural,Natural,20,36.7,38,350,0.47,165,1880,810,1070,200,2395,33.1,39.2,R2,NA,0.8,0,,
Natural,Natural,20,36.7,38,350,0.47,165,1880,810,1070,200,2396,33.1,0,R2,NA,0.8,0,,
Natural,Natural,20,31.6,38,350,0.49,170,1875,805,1075,200,2401,35.9,0,CO,NA,0.8,0,,
Crushed,Natural,20,36,38,350,0.56,195,1885,810,1075,120,2432,26.3,34.6,NA,NA,0,0,,
Crushed,Natural,20,36,38,350,0.56,195,1885,810,1075,120,2434,26.3,0,NA,NA,0,0,,
Crushed,Natural,20,35.8,38,350,0.5,175,1855,780,1075,100,2389,32.8,41.3,NA,NA,0,0,,
Crushed,Natural,20,31.9,38,350,0.54,190,1880,805,1075,125,2425,33.3,45.7,SI,NA,1,0,,
Crushed,Natural,20,35.8,38,350,0.5,175,1855,780,1075,100,2385,32.8,0,NA,NA,0,0,,
Crushed,Natural,20,31.9,38,350,0.54,190,1880,805,1075,125,2427,33.3,0,SI,NA,1,0,,
Natural,Natural,20,48.9,38,360,0.5,180,1840,775,1075,115,2386,24.8,0,NA,NA,0,0,,
Natural,Natural,20,48.7,38,350,0.49,170,1870,785,1085,200,2392,27.3,32.8,EU,NA,1,0,,
Natural,Natural,20,36.7,38,330,0.48,160,1910,820,1090,160,2405,30.8,34,R2,NA,0.7,0,,
Natural,Natural,20,36.7,38,330,0.48,160,1910,820,1090,160,2405,30.8,0,R2,NA,0.7,0,,
Crushed,Natural,20,31,38,350,0.53,185,1915,825,1090,160,2454,35.2,44.4,TY,NA,1,0,,
Crushed,Natural,20,31,38,350,0.53,185,1915,825,1090,160,2455,35.2,0,SP,NA,1,0,,
Natural,Natural,40,27.2,38,350,0.5,180,1850,760,1090,100,2384,19.4,0,NA,NA,0,0,,
Natural,Natural,40,15.6,38,350,0.5,175,1880,790,1090,120,2392,25.1,0,NA,NA,0,0,,
Natural,Natural,40,13.6,38,350,0.46,100,1890,795,1095,140,2406,32.9,39.3,SP,NA,3.5,0,,
Natural,Natural,40,15.6,38,350,0.46,160,1890,795,1095,140,2406,32.9,0,SB,NA,3.5,0,,
Natural,Natural,40,21.5,38,350,0.5,175,1855,755,1100,100,2386,27.2,32.8,NA,NA,0,0,,
Natural,Natural,40,21.5,38,350,0.5,175,1855,755,1100,100,2385,27.2,0,NA,NA,0,0,,
Natural,Natural,20,48.3,38,360,0.51,185,1835,735,1100,190,2392,31.8,0,RX,NA,0.75,0,,
Natural,Natural,20,30,38,375,0.51,190,1835,735,1100,145,2404,23.7,0,NA,NA,0,0,,
Natural,Natural,20,30,25,375,0.51,190,1835,735,1100,145,2405,23.7,32.2,NA,NA,0,0,,
Crushed,Natural,40,51.8,38,375,0.52,195,1870,770,1100,175,2443,27.8,0,NA,NA,0,0,,
Natural,Natural,20,31.6,38,330,0.5,165,1905,800,1105,130,2403,33.1,0,CO,NA,0.8,0,,
Natural,Natural,20,24.2,38,340,0.5,170,1880,770,1110,125,2454,31.4,39,EU,NA,0.75,0,,
Natural,Natural,20,24.4,38,340,0.5,170,1880,770,1110,125,2452,31.4,0,EU,NA,0.75,0,,
Natural,Natural,20,41,38,350,0.53,185,1845,735,1110,110,2384,26.3,34.1,NA,NA,0,0,,
Crushed,Natural,20,12.8,38,350,0.56,195,1910,800,1110,105,2456,27.6,37.1,NA,NA,0,0,,
Natural,Natural,20,41,38,350,0.53,185,1845,735,1110,110,2384,26.3,0,NA,NA,0,0,,
Crushed,Natural,20,12.8,38,350,0.56,195,1910,800,1110,105,2455,27.6,0,NA,NA,0,0,,
Crushed,Natural,20,24,38,350,0.53,185,1915,805,1110,175,2453,34.3,44.8,EU,NA,1,0,,
Crushed,Natural,20,24,38,350,0.53,185,1915,805,1110,220,2405,34.3,0,EU,NA,1,0,,
Natural,Natural,40,0,38,350,0.48,168,1862,745,1110,70,2395,24.7,0,NA,NA,0,0,,
Natural,Natural,20,27.3,38,310,0.51,160,1920,805,1115,120,2407,27.3,0,SP,NA,0.9,0,,
Natural,Natural,20,27.3,38,310,0.51,160,1920,805,1115,120,2406,27.3,39,SP,NA,0.9,0,,
Natural,Natural,20,48.3,38,350,0.5,175,1855,740,1115,80,2386,27.6,37,RX,NA,0.5,0,,
Natural,Natural,20,48.3,38,350,0.5,175,1855,740,1115,80,2387,27.6,0,NA,NA,0,0,,
Crushed,Natural,20,26.9,38,350,0.54,190,1920,805,1115,135,2463,26.7,0,SP,NA,0.9,0,,
Natural,Natural,40,46.4,38,350,0.5,175,1855,740,1115,130,2389,32.4,42.3,EU,NA,0.5,0,,
Natural,Natural,40,46.4,38,350,0.5,175,1855,740,1115,130,2388,32.4,0,EU,NA,0.5,0,,
Natural,Natural,40,46.8,38,350,0.5,175,1855,740,1115,130,2388,32.4,0,EU,NA,0.5,0,,
Natural,Natural,40,0,38,350,0.48,168,1862,745,1117,70,2390,24.7,31.2,NA,NA,0,0,,
Crushed,Natural,20,42.5,38,350,0.54,190,1900,780,1120,145,2445,31.6,38.3,SI,NA,1.25,0,,
Crushed,Natural,20,42.5,38,350,0.54,190,1900,780,1120,145,2446,31.6,0,SI,NA,1.25,0,,
Natural,Natural,40,12.7,38,360,0.49,175,1865,745,1120,120,2404,28,0,NA,NA,0,0,,
Crushed,Natural,20,51.8,38,365,0.53,210,1865,745,1120,120,2430,26.5,38,NA,NA,0,0,,
Crushed,Natural,20,51.8,38,365,0.53,210,1865,745,1120,120,2431,26.5,0,NA,NA,0,0,,
Natural,Natural,40,56.7,38,250,0.5,175,1875,750,1125,130,2404,27.8,0,NA,NA,0,0,,
Natural,Natural,40,50,38,340,0.5,170,1890,665,1125,190,2408,32.4,0,SP,NA,1,0,,
Natural,Natural,40,56.3,38,350,0.5,175,1875,750,1125,130,2405,27.8,37.1,NA,NA,0,0,,
Natural,Natural,40,56.3,38,350,0.5,175,1875,750,1125,130,2404,27.8,0,NA,NA,0,0,,
Natural,Natural,40,30,38,350,0.5,175,1875,750,1125,210,2404,27.5,0,JY,NA,1.25,0,,
Natural,Natural,40,30,38,350,0.5,175,1875,750,1125,210,2405,27.5,36.1,JY,NA,1.25,0,,
Natural,Natural,40,15.9,38,350,0.5,175,1875,750,1125,150,2405,24.1,33.5,NA,NA,0,0,,
Natural,Natural,40,15.9,38,350,0.5,175,1875,750,1125,150,2402,24.1,0,NA,NA,0,0,,
Crushed,Natural,20,43,48,400,0.46,185,1875,750,1125,150,2460,37.4,41.9,EU,NA,1,0,,
Crushed,Natural,20,45.8,38,350,0.54,190,1910,780,1130,100,2404,20.5,29.7,NA,NA,0,0,,
Natural,Natural,20,45.8,38,350,0.54,190,1910,780,1130,100,2403,20.5,29.7,NA,NA,0,0,,
Crushed,Natural,20,45.8,38,350,0.54,190,1910,780,1130,100,2456,20.5,0,NA,NA,0,0,,
Natural,Natural,20,39,38,350,0.49,170,1880,750,1130,150,2406,33.9,41.8,NA,NA,0,0,,
Natural,Natural,20,39,38,350,0.49,170,1880,750,1130,150,2402,33.9,0,RE,NA,1,0,,
Crushed,Natural,20,39.6,38,380,0.5,190,1880,750,1130,95,2453,31.5,0,NA,NA,0,0,,
Crushed,Natural,40,39.6,38,380,0.5,190,1880,750,1130,95,2453,31.5,40.6,NA,NA,0,0,,
Natural,Natural,40,37.4,38,325,0.49,160,1915,780,1135,200,2402,25.6,42.5,NA,NA,0,0,,
Natural,Natural,40,37.4,38,325,0.49,160,1915,780,1135,200,2402,25.6,0,NA,NA,0,0,,
Natural,Natural,20,29.8,38,350,0.47,165,1915,780,1135,180,2406,31.2,40.1,SP,NA,1,0,,
Natural,Natural,20,29.8,38,350,0.47,165,1915,780,1135,180,2406,31.2,0,SP,NA,1,0,,
Natural,Natural,40,37.9,38,360,0.51,185,1835,700,1135,140,2486,24.9,35,NA,NA,0,0,,
Natural,Natural,40,37.9,38,360,0.51,185,1835,700,1135,140,2387,24.9,0,NA,NA,0,0,,
Natural,Natural,20,48.7,38,335,0.5,165,1900,760,1140,185,2403,24.7,0,EU,NA,0.75,0,,
Natural,Natural,20,48.7,38,335,0.5,165,1900,760,1140,185,2404,24.7,31.2,EU,NA,0.75,0,,
Crushed,Natural,20,0,38,350,0.51,180,1910,765,1140,150,2400,21.8,31.7,NA,NA,0,0,,
Crushed,Natural,20,26.9,38,350,0.51,180,1910,765,1140,150,2369,21.8,0,NA,NA,0,0,,
Crushed,Natural,20,29.1,38,350,0.53,185,1905,765,1140,150,2444,33.5,0,SP,NA,1,0,,
Crushed,Natural,20,29.1,38,350,0.53,185,1905,765,1140,150,2446,34.6,0,SP,NA,1,0,,
Crushed,Natural,20,0,38,350,0.54,190,1885,755,1140,80,2430,25.8,36.1,NA,NA,0,0,,
Crushed,Natural,20,42.1,38,345,0.55,190,1905,760,1145,145,2446,33.9,43.2,RH,NA,1.25,0,,
Crushed,Natural,20,30.1,38,350,0.5,175,1910,765,1145,100,2456,32.7,41.9,NA,NA,0,0,,
Crushed,Natural,20,30.1,38,350,0.5,175,1910,765,1145,100,2455,32.7,0,NA,NA,0,0,,
Crushed,Natural,20,23.1,38,350,0.53,185,1915,770,1145,120,2454,21.9,29.9,NA,NA,0,0,,
Crushed,Natural,20,23.1,38,350,0.53,185,1915,770,1145,120,2456,21.9,0,NA,NA,0,0,,
Crushed,Natural,20,21.1,38,350,0.5,170,1910,765,1145,80,2453,18.2,0,NA,NA,0,0,,
Crushed,Natural,20,21.1,38,350,0.54,170,1910,765,1145,80,2453,18.2,0,NA,NA,0,0,,
Crushed,Natural,20,24.5,38,350,0.51,180,1910,765,1145,185,2445,31.8,39.1,SP,NA,1,0,,
Crushed,Natural,20,24.5,38,350,0.51,180,1910,765,1145,185,2445,31.8,0,SP,NA,1,0,,
Crushed,Natural,20,38,38,350,0.52,180,1905,760,1145,190,2446,36.9,40.4,SP,NA,0.75,0,,
Crushed,Natural,20,38,38,350,0.52,180,1905,760,1145,190,2445,36.9,0,SP,NA,0.75,0,,
Crushed,Natural,20,39,38,350,0.48,185,1905,760,1145,190,2445,33.2,45,RE,NA,0.75,0,,
Crushed,Natural,20,39,38,350,0.53,185,1905,760,1145,190,2443,33.2,0,RE,NA,0.75,0,,
Crushed,Natural,20,15.4,38,350,0.54,190,1910,765,1145,80,2455,27.1,39.7,NA,NA,0,0,,
Crushed,Natural,20,15.4,38,350,0.54,190,1910,765,1145,80,2455,27.1,0,NA,NA,0,0,,
Crushed,Natural,20,38.3,38,350,0.49,185,1915,770,1145,110,2451,23.4,32.9,NA,NA,0,0,,
Crushed,Natural,20,38.3,38,350,0.53,185,1915,770,1145,110,2455,32.4,0,NA,NA,0,0,,
Natural,Natural,20,32.4,38,350,0.51,180,1850,705,1145,160,2389,26.4,0,NA,NA,0,0,,
Natural,Natural,20,32.4,38,350,0.51,180,1850,705,1145,160,2394,28.6,0,NA,NA,0,0,,
Natural,Natural,20,55.1,38,350,0.51,180,1850,705,1145,100,2382,27.1,0,NA,NA,0,0,,
Natural,Natural,20,55.1,38,350,0.51,180,1850,705,1145,100,2384,27.1,32.1,NA,NA,0,0,,
Crushed,Natural,40,41.4,38,350,0.54,190,1910,765,1145,120,2404,21.9,28.5,NA,NA,0,0,,
Crushed,Natural,40,41.4,38,350,0.54,190,1910,765,1145,120,2404,21.9,0,NA,NA,0,0,,
Natural,Natural,40,32.4,38,350,0.51,180,1850,705,1145,160,2396,26.4,0,NA,NA,0,0,,
Natural,Natural,40,32.4,38,350,0.51,180,1850,705,1145,160,2390,28.6,39.6,NA,NA,0,0,,
Natural,Natural,40,32.4,38,350,0.51,180,1850,705,1145,160,2398,26.4,32.7,NA,NA,0,0,,
Natural,Natural,40,32.4,28,350,0.51,180,1850,705,1145,160,2392,28.6,0,NA,NA,0,0,,
Natural,Natural,40,37.4,38,300,0.53,160,1940,790,1150,150,2407,28.3,33.5,SP,NA,1,0,,
Natural,Natural,40,37.4,38,300,0.53,160,1940,790,1150,150,2405,28.3,0,SP,NA,1,0,,
Natural,Natural,20,34.5,38,325,0.49,160,1915,765,1150,100,2402,27.6,0,RE,NA,0.75,0,,
Crushed,Natural,20,31.3,38,350,0.51,180,1920,770,1150,175,2455,35.5,47.3,SP,NA,0.75,0,,
Crushed,Natural,20,31.3,38,350,0.51,180,1920,770,1150,175,2456,35.5,0,SP,NA,0.75,0,,
Crushed,Natural,20,36,38,350,0.54,190,1920,770,1150,120,2463,24.8,31.1,NA,NA,0,0,,
Crushed,Natural,20,0,38,350,0.54,290,1920,770,1150,65,2465,28.4,0,NA,NA,0,0,,
Crushed,Natural,20,0,38,350,0.54,190,1920,770,1150,65,2460,28.4,33.3,NA,NA,0,0,,
Crushed,Natural,20,53.5,38,350,0.51,180,1920,725,1150,130,2453,28.6,35.9,JY,NA,1.25,0,,
Crushed,Natural,20,53.5,38,350,0.51,180,1920,725,1150,130,2454,28.6,0,JY,NA,1.25,0,,
Crushed,Natural,20,36,38,350,0.54,190,1920,770,1150,120,2465,24.8,0,NA,NA,0,0,,
Natural,Natural,40,47.6,38,350,0.51,180,1850,700,1150,110,2384,23.7,0,NA,NA,0,0,,
Natural,Natural,40,33.1,38,350,0.5,175,1855,705,1150,140,2383,37.7,0,NA,NA,0,0,,
Natural,Natural,40,33.1,38,350,0.5,175,1855,705,1150,140,2383,27.7,36.3,NA,NA,0,0,,
Natural,Natural,40,31.2,38,350,0.5,175,1855,705,1150,100,2396,27.9,0,NA,NA,0,0,,
Natural,Natural,40,31.2,38,350,0.5,175,1855,705,1150,100,2402,27.9,32.8,NA,NA,0,0,,
Crushed,Natural,20,47.3,39,375,0.55,205,1850,700,1150,75,2433,29.1,39.4,NA,NA,0,0,,
Crushed,Natural,20,47.3,38,375,0.55,205,1850,700,1150,75,2435,29.1,0,NA,NA,0,0,,
Natural,Natural,40,45,38,375,0.45,170,1855,705,1150,200,2405,40.2,0,CO,NA,1,0,,
Natural,Natural,40,45,38,375,0.45,170,1855,705,1150,200,2452,45.8,49.6,CO,NA,1,0,,
Natural,Natural,40,0,38,360,0.45,162,1858,706,1152,80,2403,28.7,0,NA,NA,0,0,,
Natural,Natural,40,0,38,360,0.45,162,1858,706,1152,80,2408,28.7,38.1,NA,NA,0,0,,
Natural,Natural,20,52.1,38,250,0.5,175,1865,710,1155,200,2395,30,0,CO,NA,0.8,0,,
Natural,Natural,40,28,38,340,0.49,165,1895,740,1155,170,2409,34.2,43.8,SI,NA,1,0,,
Natural,Natural,40,28,38,340,0.49,165,1895,740,1155,170,2402,28.4,0,SI,NA,0.8,0,,
Natural,Natural,40,28,38,340,0.49,165,1895,740,1155,170,2403,28.4,34.2,SI,NA,0.8,0,,
Natural,Natural,20,43.3,38,350,0.53,185,1865,710,1155,140,2405,26.9,34.9,NA,NA,0,0,,
Natural,Natural,20,43.3,38,350,0.53,185,1865,710,1155,140,2405,26.9,0,NA,NA,0,0,,
Natural,Natural,20,52.1,38,350,0.5,175,1865,710,1155,200,2395,30,39.5,CO,NA,0.8,0,,
Natural,Natural,40,0,38,350,0.5,175,1925,770,1155,120,2455,18.3,28.3,SP,NA,1,0,,
Natural,Natural,40,0,38,350,0.5,175,1925,770,1155,120,2454,18.3,0,SP,NA,1,0,,
Natural,Natural,40,34.4,38,350,0.5,175,1855,700,1155,150,2389,24.3,0,NA,NA,0,0,,
Natural,Natural,40,37.6,38,350,0.51,175,1865,710,1155,100,2393,27.8,0,NA,NA,0,0,,
Natural,Natural,40,34.4,38,350,0.5,175,1855,700,1155,150,2390,24.3,33.2,NA,NA,0,0,,
Natural,Natural,40,37.6,38,350,0.51,175,1865,710,1155,100,2396,27.8,35,NA,NA,0,0,,
Natural,Natural,40,37.6,38,350,0.51,175,1865,710,1155,100,2394,27.8,35,NA,NA,0,0,,
Natural,Natural,20,21.4,38,360,0.5,180,1840,685,1155,100,2496,26.5,38.5,NA,NA,0,0,,
Natural,Natural,20,21.4,38,360,0.5,180,1840,685,1155,100,2390,26.5,0,NA,NA,0,0,,
Natural,Natural,40,54,38,365,0.51,185,1830,675,1155,140,2387,24.6,32.4,NA,NA,0,0,,
Natural,Natural,40,54,38,365,0.51,185,1830,675,1155,140,2385,24.6,0,NA,NA,0,0,,
Natural,Natural,40,42.5,42,375,0.48,180,1835,680,1155,140,2393,32.5,0,NA,NA,0,0,,
Crushed,Natural,20,51.8,38,335,0.52,185,1930,770,1160,185,2452,34.1,44.2,SP,NA,0.9,0,,
Crushed,Natural,20,51.8,38,335,0.52,185,1930,770,1160,185,2449,34.1,0,SP,NA,0.9,0,,
Natural,Natural,20,69.8,38,350,0.51,180,1870,710,1160,110,2404,20.8,26.4,NA,NA,0,0,,
Natural,Natural,20,69.8,38,350,0.51,180,1870,710,1160,110,2406,20.8,0,NA,NA,0,0,,
Natural,Natural,20,55.8,38,350,0.51,180,1870,710,1160,150,2403,12,0,NA,NA,0,0,,
Natural,Natural,20,29,38,350,0.51,180,1870,710,1160,170,2405,21.1,29.8,NA,NA,0,0,,
Natural,Natural,20,29,38,350,0.51,180,1870,710,1160,170,2404,21.1,0,NA,NA,0,0,,
Natural,Natural,40,26.2,38,350,0.51,180,1870,710,1160,120,2405,26.3,0,NA,NA,0,0,,
Natural,Natural,20,56,38,360,0.49,175,1845,685,1160,95,2391,26.3,32.5,NA,NA,0,0,,
Natural,Natural,20,46.9,38,360,0.51,185,1870,710,1160,120,2395,31.3,0,NA,NA,0,0,,
Natural,Natural,20,46.9,38,360,0.51,185,1870,710,1160,120,2392,31.3,41.4,NA,NA,0,0,,
Natural,Natural,20,25,38,325,0.51,165,1910,745,1165,150,2405,31.4,36.9,SP,NA,1,0,,
Crushed,Natural,20,29.7,38,350,0.54,190,1910,745,1165,150,2455,23.1,32,SP,NA,0.75,0,,
Crushed,Natural,20,29.7,38,350,0.54,190,1910,745,1165,150,2456,23.1,0,SP,NA,0.75,0,,
Natural,Natural,20,25,38,350,0.51,165,1910,745,1165,150,2406,31.4,0,SP,NA,1,0,,
Natural,Natural,20,48.1,38,350,0.49,170,1880,715,1165,150,2408,32.2,0,SP,NA,1,0,,
Natural,Natural,40,50.2,38,350,0.5,175,1865,700,1165,70,2395,27.6,33.6,NA,NA,0,0,,
Natural,Natural,40,50.2,38,350,0.5,175,1865,700,1165,70,2395,27.6,0,NA,NA,0,0,,
Natural,Natural,40,30.3,38,350,0.5,175,1865,700,1165,120,2493,29.4,0,NA,NA,0,0,,
Natural,Natural,40,28,38,325,0.49,160,1915,747,1168,110,2402,30.8,40,SI,NA,0.75,0,,
Natural,Natural,40,28,38,325,0.49,160,1915,477,1168,110,2401,26,0,SI,NA,0.8,0,,
Natural,Natural,40,28,38,325,0.49,160,1915,747,1168,110,2402,26,30.8,SI,NA,0.8,0,,
Natural,Natural,40,50.5,38,320,0.5,160,1920,750,1170,160,2404,27.6,34,SI,NA,1,0,,
Natural,Natural,40,50.5,38,320,0.5,160,1920,750,1170,160,2404,27.6,0,SI,NA,1,0,,
Crushed,Natural,20,49,38,350,0.47,165,1855,715,1170,135,2407,33.9,45.7,PE,NA,1,0,,
Crushed,Natural,20,49,38,350,0.47,165,1855,715,1170,135,2405,27.8,33.9,PE,NA,2,0,,
Natural,Natural,20,48.8,38,350,0.48,165,1885,715,1170,200,2403,27.8,32.6,RE,NA,1,0,,
Crushed,Natural,20,49,38,350,0.47,165,1855,715,1170,135,2405,27.8,0,PE,NA,2,0,,
Natural,Natural,20,37.6,38,350,0.46,160,1890,720,1170,200,2406,32.4,0,SI,NA,1,0,,
Natural,Natural,20,0,38,350,0.48,165,1885,715,1170,200,2403,27.8,0,RE,NA,1,0,,
Natural,Natural,20,37.6,38,350,0.46,160,1890,720,1170,200,2404,32.4,41.3,SI,NA,1,0,,
Natural,Natural,40,50.7,38,350,0.47,165,1885,715,1170,150,2405,28.3,0,SP,NA,0.75,0,,
Natural,Natural,40,34.2,38,350,0.54,190,1885,715,1170,100,2404,19.9,0,NA,NA,0,0,,
Natural,Natural,40,37.9,38,350,0.47,165,1885,715,1170,165,2405,36.7,0,NA,NA,0,0,,
Natural,Natural,20,38,38,365,0.48,175,1860,690,1170,150,2404,31.1,38.9,SP,NA,0.75,0,,
Natural,Natural,20,38,38,365,0.48,175,1860,690,1170,150,2403,31.1,0,SP,NA,0.75,0,,
Crushed,Natural,20,33.1,38,375,0.51,190,1885,715,1170,120,2452,24.9,31.5,NA,NA,0,0,,
Crushed,Natural,20,33.1,38,375,0.51,190,1885,715,1170,120,2450,24.9,0,NA,NA,0,0,,
Natural,Natural,40,42.6,38,340,0.47,160,1900,725,1175,150,2405,28,34.6,JY,NA,1.25,0,,
Natural,Natural,40,42.6,38,340,0.47,169,1900,725,1175,150,2405,28,0,IY,NA,1.25,0,,
Crushed,Natural,20,26.3,38,350,0.54,190,1900,725,1175,150,2449,34.6,0,NA,NA,0,0,,
Crushed,Natural,20,26.3,38,350,0.54,190,1900,725,1175,150,2443,34.6,40.5,NA,NA,0,0,,
Natural,Natural,40,20.5,38,350,0.5,175,1875,700,1175,120,2404,25.3,34.3,NA,NA,0,0,,
Natural,Natural,40,20.5,38,350,0.5,175,1875,700,1175,120,2406,25.3,0,NA,NA,0,0,,
Crushed,Natural,20,62.9,38,365,0.53,195,1880,695,1175,100,2443,25.1,33.4,NA,NA,0,0,,
Crushed,Natural,20,62.9,38,365,0.53,195,1880,695,1175,100,2442,25.1,0,NA,NA,0,0,,
Natural,Natural,40,37.8,38,350,0.47,165,1885,715,1179,165,2403,36.7,42.5,SP,NA,1,0,,
Natural,Natural,20,72.9,38,350,0.5,175,1875,695,1180,105,2405,26.8,0,NA,NA,0,0,,
Natural,Natural,20,45.9,38,350,0.51,180,1870,690,1180,100,2405,17.9,25.3,NA,NA,0,0,,
Natural,Natural,20,45.9,38,350,0.51,180,1870,690,1180,100,2404,17.9,0,NA,NA,0,0,,
Natural,Natural,20,72.9,38,350,0.5,175,1875,695,1180,105,2405,26.8,37.5,NA,NA,0,0,,
Crushed,Natural,20,40,38,350,0.53,184,1905,725,1180,180,2464,29.1,0,NA,NA,0,0,,
Crushed,Natural,20,43.3,38,350,0.5,185,1905,725,1180,150,2453,30.8,0,NA,NA,0,0,,
Natural,Natural,40,44,38,350,0.51,180,1970,690,1180,100,2405,26.1,0,NA,NA,0,0,,
Natural,Natural,40,0,38,350,0.51,165,1845,665,1180,160,2404,30,34.3,SP,NA,3,0,,
Natural,Natural,40,0,38,350,0.51,165,1845,665,1180,160,2404,30,0,SP,NA,3,0,,
Crushed,Natural,40,14.7,38,350,0.51,100,1870,690,1180,100,2404,19.4,24.5,NA,NA,0,0,,
Crushed,Natural,40,14.7,38,350,0.51,180,1870,690,1180,100,2404,19.4,0,NA,NA,0,0,,
Natural,Natural,40,44,38,350,0.51,180,1870,690,1180,100,2406,26.1,32.7,NA,NA,0,0,,
Natural,Natural,40,41.4,38,350,0.51,180,1870,690,1180,130,2404,19.7,27.2,NA,NA,0,0,,
Natural,Natural,40,41.4,38,350,0.51,180,1870,690,1180,130,2403,19.7,0,NA,NA,0,0,,
Natural,Natural,40,15.4,38,350,0.5,175,1875,695,1180,100,2403,28.1,38.6,NA,NA,0,0,,
Natural,Natural,40,67.4,38,350,0.5,175,1875,695,1180,140,2403,27.7,36,NA,NA,0,0,,
Natural,Natural,40,15.4,38,350,0.5,175,1875,695,1180,100,2404,28.1,0,NA,NA,0,0,,
Natural,Natural,40,67.4,38,350,0.5,175,1875,695,1180,140,2401,27.7,0,NA,NA,0,0,,
Natural,Natural,40,22.7,38,350,0.5,175,1875,695,1180,120,2406,24.2,36.7,NA,NA,0,0,,
Natural,Natural,40,47.5,38,350,0.5,180,1875,695,1180,120,2406,24.2,0,NA,NA,0,0,,
Crushed,Natural,40,35.1,38,350,0.53,185,1905,725,1180,90,2444,29.4,40.2,NA,NA,0,0,,
Natural,Natural,40,42.1,38,360,0.5,180,1850,670,1180,125,2385,24.3,34.8,NA,NA,0,0,,
Natural,Natural,40,42.1,38,360,0.5,180,1850,670,1180,125,2387,24.3,0,NA,NA,0,0,,
Natural,Natural,40,32.4,38,350,0.51,153,1907,725,1182,220,2403,30.8,0,X-,NA,0.7,0,,
Natural,Natural,40,32.4,38,350,0.44,153,1907,725,1182,220,2437,37,0,X-,NA,1.5,0,,
Natural,Natural,40,32.4,38,350,0.44,153,1907,725,1182,220,2435,37,43.4,X-,NA,1.5,0,,
Natural,Natural,40,32.4,38,350,0.44,153,1907,725,1182,220,2405,30.8,34.9,X-,NA,0.7,0,,
Natural,Natural,20,57,38,340,0.49,165,1880,695,1185,200,2403,32.6,41.9,SP,NA,0.75,0,,
Natural,Natural,20,57,38,340,0.49,190,1880,695,1185,200,2405,32.6,0,SP,NA,0.75,0,,
Crushed,Natural,20,30.2,38,350,0.53,185,1915,730,1185,140,2456,28.9,39.9,SP,NA,1,0,,
Crushed,Natural,20,30.2,38,350,0.53,185,1915,730,1185,140,2458,28.9,0,SP,NA,1,0,,
Natural,Natural,20,54.3,38,350,0.49,170,1880,695,1185,130,2396,27.7,30,SD,NA,0.75,0,,
Natural,Natural,20,54.3,38,350,0.49,170,1880,695,1185,130,2403,27.7,0,SD,NA,0.75,0,,
Natural,Natural,20,57.8,38,350,0.49,170,1880,695,1185,110,2409,32.6,40.1,NA,NA,0,0,,
Natural,Natural,20,57.8,38,350,0.49,170,1880,695,1185,110,2407,32.6,0,NA,NA,0,0,,
Crushed,Natural,20,43.6,38,350,0.54,190,1910,725,1185,120,2452,25.4,37.7,NA,NA,0,0,,
Crushed,Natural,20,43.6,38,350,0.54,190,1910,725,1185,120,2454,25.4,0,NA,NA,0,0,,
Crushed,Natural,20,43.9,38,350,0.54,190,1910,725,1185,175,2454,29,0,NA,NA,0,0,,
Crushed,Natural,20,43.9,38,350,0.54,190,1910,725,1185,175,2459,29,36.3,NA,NA,0,0,,
Natural,Natural,20,48.2,38,350,0.5,175,1855,670,1185,200,2386,32.9,0,SP,NA,0.9,0,,
Natural,Natural,20,48.2,38,350,0.5,175,1855,670,1185,200,2385,32.9,42.4,SP,NA,0.9,0,,
Natural,Natural,40,42.7,38,350,0.49,170,1880,695,1185,155,2399,26.9,33.2,NA,NA,0,0,,
Natural,Natural,40,42.7,38,350,0.49,170,1880,695,1185,155,2407,26.9,0,NA,NA,0,0,,
Natural,Natural,40,0,38,350,0.51,180,1850,665,1185,150,2389,25.3,0,NA,NA,0,0,,
Natural,Natural,40,0,38,350,0.51,180,1850,665,1185,150,2388,25.3,0,NA,NA,0,0,,
Natural,Natural,40,0,38,350,0.51,180,1850,665,1185,150,2389,25.3,29.3,NA,NA,0,0,,
Natural,Natural,40,41.1,38,350,0.5,175,1855,670,1185,120,2385,24.4,0,NA,NA,0,0,,
Natural,Natural,40,41.1,38,350,0.5,175,1855,670,1185,120,2384,24.4,32.5,NA,NA,0,0,,
Natural,Natural,40,0,38,360,0.51,180,1850,665,1185,170,2389,23.5,0,NA,NA,0,0,,
Natural,Natural,40,0,38,360,0.51,180,1850,665,1185,170,2397,23.5,29.6,NA,NA,0,0,,
Natural,Natural,40,24,38,325,0.49,160,1915,725,1190,175,2406,31.5,42.2,EU,NA,1,0,,
Natural,Natural,40,32.7,38,325,0.49,160,1915,715,1190,165,2406,23,0,RE,NA,0.75,0,,
Natural,Natural,40,32.7,38,325,0.49,160,1915,725,1190,165,2405,23,28.6,RE,NA,0.75,0,,
Natural,Natural,40,24,38,325,0.49,160,1915,725,1190,175,2405,31.5,0,EU,NA,1,0,,
Crushed,Natural,20,33.2,38,350,0.53,185,1915,725,1190,150,2455,29.4,39.9,SP,NA,3.5,0,,
Crushed,Natural,20,33.2,38,350,0.53,185,1915,725,1190,150,2455,32.3,0,SP,NA,3.5,0,,
Crushed,Natural,20,50.7,38,350,0.54,190,1920,730,1190,150,2455,24.1,32.7,NA,NA,0,0,,
Crushed,Natural,20,50.7,38,350,0.54,190,1920,730,1190,150,2455,24.1,0,NA,NA,0,0,,
Natural,Natural,20,42,38,350,0.46,160,1890,700,1190,200,2403,25.9,0,RE,NA,0.75,0,,
Natural,Natural,20,42,38,350,0.46,160,1890,700,1190,200,2403,25.9,31.7,RE,NA,0.75,0,,
Crushed,Natural,40,67.4,38,350,0.54,190,1890,700,1190,135,2434,30.4,41.5,NA,NA,0,0,,
Crushed,Natural,40,67.4,38,350,0.54,190,1890,700,1190,135,2435,30.4,0,NA,NA,0,0,,
Natural,Natural,40,22.7,38,350,0.5,175,1865,675,1190,100,2400,31.4,39.8,NA,NA,0,0,,
Natural,Natural,40,22.7,38,350,0.5,175,1865,675,1190,100,2402,31.4,0,NA,NA,0,0,,
Natural,Natural,40,36.9,38,350,0.5,175,1860,670,1190,90,2390,23.6,30.3,NA,NA,0,0,,
Natural,Natural,40,36.9,38,350,0.5,175,1860,670,1190,110,2389,22.1,28.4,NA,NA,0,0,,
Natural,Natural,40,36.9,38,350,0.5,175,1860,670,1190,110,2388,22.1,0,NA,NA,0,0,,
Natural,Natural,40,36.9,38,350,0.5,175,1860,670,1190,90,2394,24.4,0,NA,NA,0,0,,
Natural,Natural,40,37.1,38,360,0.5,180,1860,670,1190,130,2403,28.1,0,NA,NA,0,0,,
Natural,Natural,40,37.1,38,360,0.5,180,1860,670,1190,130,2404,28.1,36.3,NA,NA,0,0,,
Natural,Natural,40,58,38,365,0.49,180,1835,645,1190,70,2391,24.4,29.8,NA,NA,0,0,,
Natural,Natural,40,58,38,365,0.49,180,1835,645,1190,70,2392,24.4,0,NA,NA,0,0,,
Natural,Natural,20,0,38,350,0.51,180,1870,675,1195,100,2405,20.7,29.3,NA,NA,0,0,,
Natural,Natural,20,67,38,350,0.51,180,1870,675,1195,100,2407,20.7,0,NA,NA,0,0,,
Natural,Natural,20,62.3,38,350,0.51,180,1870,750,1195,150,2406,25.7,0,NA,NA,0,0,,
Natural,Natural,20,67.3,38,350,0.49,170,1870,675,1195,150,2385,29.5,40.9,RE,NA,1,0,,
Natural,Natural,20,67.3,38,350,0.49,170,1870,675,1195,150,2395,29.5,0,RE,NA,1,0,,
Natural,Natural,40,42.5,38,350,0.51,180,1870,675,1195,150,2403,20.1,0,NA,NA,0,0,,
Natural,Natural,40,26.2,38,350,0.51,180,1870,675,1195,150,2403,25,0,SP,NA,1,0,,
Natural,Natural,40,56.6,38,350,0.51,180,1870,675,1195,100,2404,19.7,27.4,NA,NA,0,0,,
Natural,Natural,40,66.5,38,350,0.51,180,1870,675,1195,140,2406,15.6,20.7,NA,NA,0,0,,
Natural,Natural,40,21.1,38,350,0.51,180,1870,675,1195,100,2405,15.9,0,NA,NA,0,0,,
Natural,Natural,40,56.6,38,350,0.51,180,1870,675,1195,100,2403,19.7,0,NA,NA,0,0,,
Natural,Natural,40,66.5,38,350,0.51,180,1870,675,1195,140,2403,15.6,0,NA,NA,0,0,,
Natural,Natural,40,59.8,38,350,0.51,180,1870,675,1195,100,2409,23,34.7,NA,NA,0,0,,
Natural,Natural,40,58.9,38,350,0.51,180,1870,675,1195,100,2406,23,0,NA,NA,0,0,,
Natural,Natural,40,59.8,38,350,0.51,180,1870,675,1195,100,2406,23,0,NA,NA,0,0,,
Natural,Natural,40,20,38,350,0.51,180,1870,750,1195,150,2405,25.7,34,NA,NA,0,0,,
Natural,Natural,40,42,38,350,0.51,180,1870,675,1195,90,2407,22.2,0,NA,NA,0,0,,
Natural,Natural,40,0,38,350,0.51,180,1870,675,1195,110,2403,22.8,27.9,NA,NA,0,0,,
Natural,Natural,40,0,38,350,0.51,180,1870,675,1195,110,2403,22.8,0,NA,NA,0,0,,
Natural,Natural,40,42,38,350,0.51,180,1970,675,1195,90,2406,22.2,27.2,NA,NA,0,0,,
Natural,Natural,40,49.7,38,350,0.5,175,1865,670,1195,120,2397,19.9,0,NA,NA,0,0,,
Natural,Natural,40,49.7,38,350,0.5,175,1865,670,1195,120,2387,19.9,25.4,NA,NA,0,0,,
Natural,Natural,40,70.7,38,220,0.5,165,1905,705,1200,125,2403,31.4,39.9,RE,NA,1,0,,
Crushed,Natural,20,30.2,38,300,0.62,185,1965,765,1200,120,2456,19,0,SP,NA,0.75,0,,
Natural,Natural,40,28.5,38,325,0.5,175,1875,675,1200,120,2406,22.1,0,NA,NA,0,0,,
Natural,Natural,40,28.5,38,325,0.51,175,1875,675,1200,120,2409,22.1,29.9,NA,NA,0,0,,
Natural,Natural,40,70.7,38,330,0.5,165,1905,705,1200,125,2405,31.4,0,RE,NA,1,0,,
Natural,Natural,20,44.6,38,350,0.51,170,1880,680,1200,100,2404,21.2,29.2,NA,NA,0,0,,
Natural,Natural,20,64.4,38,350,0.51,170,1880,680,1200,100,2405,21.2,0,NA,NA,0,0,,
Natural,Natural,20,54,38,350,0.5,175,1875,675,1200,150,2407,28.6,34,NA,NA,0,0,,
Natural,Natural,40,46,38,350,0.5,175,1875,675,1200,120,2405,20.5,27.1,NA,NA,0,0,,
Natural,Natural,40,36.5,38,350,0.5,175,1875,675,1200,100,2404,23,27.7,NA,NA,0,0,,
Natural,Natural,40,36.5,38,350,0.5,175,1875,675,1200,100,2403,23,0,NA,NA,0,0,,
Natural,Natural,40,46,38,350,0.5,175,1875,675,1200,120,2404,20.5,0,NA,NA,0,0,,
Natural,Natural,40,60.5,38,350,0.5,175,1875,675,1200,150,2403,21.9,32.2,SP,NA,0.75,0,,
Natural,Natural,40,60.5,38,350,0.5,175,1875,675,1200,150,2404,21.9,0,SP,NA,0.75,0,,
Natural,Natural,40,41.6,38,350,0.52,175,1875,675,1200,110,2406,25,33.8,NA,NA,0,0,,
Natural,Natural,40,41.6,38,350,0.52,175,1875,675,1200,110,2405,25,0,NA,NA,0,0,,
Natural,Natural,40,61.5,38,350,0.5,175,1875,675,1200,100,2406,19.2,25.2,NA,NA,0,0,,
Natural,Natural,40,60.3,38,350,0.5,175,1875,675,1200,150,2406,27,36.4,NA,NA,0,0,,
Natural,Natural,40,60.3,38,350,0.5,175,1875,675,1200,150,2402,27,0,NA,NA,0,0,,
Natural,Natural,40,61.5,38,350,0.5,175,1875,675,1200,100,2403,29.2,0,NA,NA,0,0,,
Natural,Natural,40,54,38,350,0.5,175,1875,675,1200,150,1404,28.6,0,NA,NA,0,0,,
Natural,Natural,40,46.2,38,350,0.47,165,1885,685,1200,205,2401,31.1,0,SP,NA,1,0,,
Natural,Natural,40,46.2,38,350,0.47,165,1885,685,1200,205,2406,31.1,36.2,NA,NA,0,0,,
Natural,Natural,40,50,38,350,0.5,175,1875,675,1200,130,2406,27.9,0,NA,NA,0,0,,
Natural,Natural,40,50,38,350,0.5,175,1875,675,1200,130,2406,27.9,33.5,NA,NA,0,0,,
Natural,Natural,40,0,38,350,0.51,180,1850,650,1200,100,2384,26.2,0,NA,NA,0,0,,
Natural,Natural,40,0,38,350,0.51,180,1850,650,1200,100,2484,26.2,36.7,NA,NA,0,0,,
Natural,Natural,40,11,38,350,0.5,175,1855,655,1200,100,2382,27.8,0,NA,NA,0,0,,
Natural,Natural,40,31.4,38,350,0.5,175,1875,675,1200,100,2404,29.8,35.4,NA,NA,0,0,,
Natural,Natural,40,31.4,38,350,0.5,175,1875,675,1200,100,2403,29.8,0,NA,NA,0,0,,
Natural,Natural,40,43.6,38,350,0.49,170,1880,680,1200,125,2404,34.8,0,EU,NA,0.75,0,,
Natural,Natural,40,45,38,350,0.5,175,1875,675,1200,110,2403,24,33.7,NA,NA,0,0,,
Natural,Natural,40,34.6,38,350,0.49,170,1880,680,1200,125,2405,34.8,41.3,EU,NA,0.75,0,,
Natural,Natural,40,35.2,38,350,0.5,175,1875,675,1200,100,2403,28.1,0,NA,NA,0,0,,
Natural,Natural,40,35.2,38,350,0.5,175,1875,675,1200,100,2401,28.1,37.6,NA,NA,0,0,,
Natural,Natural,40,35.2,38,350,0.5,175,1875,675,1200,90,2404,21.6,30.1,NA,NA,0,0,,
Natural,Natural,40,35.2,38,350,0.5,175,1875,675,1200,90,2403,21.6,30.1,NA,NA,0,0,,
Natural,Natural,40,45,38,350,0.5,175,1875,675,1200,110,2404,24,0,NA,NA,0,0,,
Natural,Natural,40,63,38,350,0.5,175,1875,675,1200,100,2406,32.3,39.1,NA,NA,0,0,,
Natural,Natural,40,63,38,350,0.5,175,1875,675,1200,100,2406,32.3,0,NA,NA,0,0,,
Natural,Natural,40,52.4,38,350,0.5,175,1865,665,1200,150,2406,24,0,NA,NA,0,0,,
Natural,Natural,40,52.4,38,350,0.5,175,1865,665,1200,150,19.5,0,0,NA,NA,0,0,,
Natural,Natural,40,47.4,38,350,0.5,175,1875,675,1200,75,2404,24.9,0,NA,NA,0,0,,
Natural,Natural,40,47.4,38,350,0.5,175,1875,675,1200,75,2404,24.9,31.2,NA,NA,0,0,,
Crushed,Natural,40,31.1,38,350,0.54,190,1900,700,1200,90,2465,32.8,0,NA,NA,0,0,,
Natural,Natural,40,35.2,38,360,0.5,175,1875,675,1200,90,2405,21.6,0,NA,NA,0,0,,
Natural,Natural,40,0,38,375,0.48,180,1845,645,1200,120,2401,26.2,0,NA,NA,0,0,,
Natural,Natural,40,0,38,375,0.48,180,1845,645,1200,120,2403,26.2,33,NA,NA,0,0,,
Natural,Natural,20,46.2,38,350,0.51,180,1850,648,1202,140,2390,25.1,34.3,NA,NA,0,0,,
Natural,Natural,20,46.2,38,350,0.51,180,1850,648,1202,140,2385,25.1,0,NA,NA,0,0,,
Natural,Natural,20,45.6,38,320,0.52,165,1915,710,1205,120,2407,32.7,0,SP,NA,1,0,,
Natural,Natural,20,45.6,38,320,0.52,165,1915,710,1205,170,2402,0,0,SP,NA,1,0,,
Natural,Natural,20,45.6,38,320,0.52,165,1915,715,1205,170,2407,32.6,40.4,SP,NA,1,0,,
Natural,Natural,40,50.8,38,325,0.5,160,1915,610,1205,100,2408,37.3,0,CI,NA,0.75,0,,
Natural,Natural,40,50.8,38,325,0.5,160,1915,710,1205,100,2407,37.3,41.4,CI,NA,0.75,0,,
Crushed,Natural,20,36.9,38,350,0.55,185,1915,710,1205,130,2454,23.5,30.4,SP,NA,3.5,0,,
Crushed,Natural,20,36.9,38,350,0.55,185,1915,710,1205,130,2403,23.5,0,SP,NA,3.5,0,,
Crushed,Natural,20,39.7,38,350,0.53,185,1915,710,1205,120,2453,28.9,36.3,NA,NA,0,0,,
Crushed,Natural,20,39.7,38,350,0.53,185,1915,710,1205,120,2451,28.9,0,NA,NA,0,0,,
Natural,Natural,20,48.2,38,350,0.5,175,1855,650,1205,140,2385,32.5,0,SP,NA,0.9,0,,
Natural,Natural,20,42.2,38,350,0.5,175,1855,650,1205,140,2390,32.5,41.6,SP,NA,0.9,0,,
Natural,Natural,40,53.3,38,350,0.47,165,1885,680,1205,170,2411,28.7,32.9,SP,NA,0.75,0,,
Natural,Natural,40,53.3,38,350,0.47,165,1885,680,1205,150,2418,26.5,29.5,SP,NA,0.75,0,,
Natural,Natural,40,53.3,38,350,0.47,165,1885,680,1205,150,2415,26.5,0,SP,NA,0.75,0,,
Natural,Natural,40,53.3,38,350,0.47,165,1885,680,1205,170,2413,28.7,0,SP,NA,0.75,0,,
Natural,Natural,40,29.9,38,350,0.49,170,1880,675,1205,170,2445,26.6,0,NA,NA,0,0,,
Natural,Natural,40,29.9,38,350,0.49,170,1880,675,1205,170,2405,26.6,31.5,NA,NA,0,0,,
Natural,Natural,40,17.1,38,350,0.49,170,1880,675,1205,90,2404,22.4,0,NA,NA,0,0,,
Natural,Natural,40,17.1,38,350,0.49,170,1880,675,1205,90,2403,22.4,27.9,NA,NA,0,0,,
Natural,Natural,40,62.8,38,350,0.5,175,1855,650,1205,150,2388,19,0,NA,NA,0,0,,
Natural,Natural,40,36,38,350,0.49,170,1880,675,1205,100,2400,25.3,0,NA,NA,0,0,,
Natural,Natural,40,53.2,38,365,0.49,180,1885,650,1205,150,2405,23.4,0,NA,NA,0,0,,
Natural,Natural,40,53.2,38,365,0.49,180,1885,650,1205,150,2403,23.4,29.1,NA,NA,0,0,,
Natural,Natural,20,45.6,38,340,0.5,170,1890,660,1210,200,2406,32,0,SP,NA,1,0,,
Natural,Natural,20,45.6,38,340,0.5,170,1890,680,1210,200,2402,32,42.2,SP,NA,1,0,,
Natural,Natural,20,52,38,350,0.54,190,1860,650,1210,130,2405,24.2,35,NA,NA,0,0,,
Natural,Natural,20,52,38,350,0.54,190,1860,650,1210,130,2404,24.2,0,NA,NA,0,0,,
Natural,Natural,40,23.7,38,350,0.5,175,1865,655,1210,110,2394,31.5,36.1,NA,NA,0,0,,
Natural,Natural,40,23.7,38,350,0.5,175,1865,655,1210,110,2394,38.5,0,NA,NA,0,0,,
Natural,Natural,40,37.2,38,325,0.52,107,1905,690,1215,140,2401,27.6,36.1,SP,NA,1,0,,
Natural,Natural,40,37.2,38,325,0.52,170,1905,690,1215,140,2404,27.6,0,SP,NA,1,0,,
Natural,Natural,40,41.6,38,350,0.51,180,1870,655,1215,90,2404,20.5,26.1,NA,NA,0,0,,
Natural,Natural,40,41.6,38,350,0.51,180,1870,655,1215,90,2403,20.5,0,NA,NA,0,0,,
Natural,Natural,40,60.6,38,350,0.51,180,1870,655,1215,140,2405,15.7,21,NA,NA,0,0,,
Natural,Natural,40,60.6,38,350,0.51,180,1870,655,1215,110,2404,23,0,NA,NA,0,0,,
Natural,Natural,40,58.9,38,350,0.52,180,1870,655,1215,120,24003,27.4,34.3,NA,NA,0,0,,
Natural,Natural,40,58.9,38,350,0.51,180,1870,655,1215,150,2405,24.2,0,NA,NA,0,0,,
Natural,Natural,40,58.9,38,350,0.51,180,1870,655,1215,120,2409,27.4,0,NA,NA,0,0,,
Natural,Natural,40,62,38,350,0.5,175,1870,655,1215,130,2398,23.1,0,NA,NA,0,0,,
Natural,Natural,40,61,38,360,0.5,175,1850,635,1215,140,2391,25,30.4,NA,NA,0,0,,
Natural,Natural,40,61,38,380,0.5,175,1850,635,1215,149,2391,25,0,NA,NA,0,0,,
Natural,Natural,40,45,38,330,0.48,160,1910,690,1220,180,2403,32,0,CO,NA,1,0,,
Natural,Natural,40,45,38,330,0.48,160,1910,690,1220,180,2404,32,45.5,CO,NA,1,0,,
Crushed,Natural,20,29.1,38,350,0.54,190,1910,690,1220,100,2451,25.9,35.5,NA,NA,0,0,,
Crushed,Natural,20,32.5,38,350,0.54,190,1910,690,1220,120,2451,32.5,43,NA,NA,0,0,,
Crushed,Natural,20,32.5,38,350,0.54,190,1910,690,1220,120,2452,32.4,0,NA,NA,0,0,,
Crushed,Natural,20,54.2,38,350,0.54,190,1910,690,1220,120,2453,31.1,39.1,NA,NA,0,0,,
Crushed,Natural,20,33.1,38,350,0.54,190,1910,690,1220,110,2455,26.8,35.5,NA,NA,0,0,,
Crushed,Natural,20,29.1,38,350,0.54,190,1910,690,1220,100,2456,25.9,0,NA,NA,0,0,,
Crushed,Natural,20,33.1,38,350,0.54,190,1910,690,1220,110,2459,26.8,0,NA,NA,0,0,,
Crushed,Natural,20,54.1,38,350,0.54,190,1910,690,1220,120,2450,31.1,0,NA,NA,0,0,,
Natural,Natural,40,59.5,38,325,0.5,160,1915,690,1225,70,2405,18.7,0,CI,NA,0.75,0,,
Natural,Natural,40,59.5,38,325,0.5,160,1915,690,1225,70,2404,38.7,40.7,CI,NA,0.75,0,,
Natural,Natural,20,48.2,38,340,0.5,170,1855,630,1225,140,2388,26.3,38.1,SI,NA,0.8,0,,
Natural,Natural,20,59.7,38,340,0.5,170,1855,630,1225,115,2388,26.3,0,SI,NA,0.8,0,,
Natural,Natural,20,56.7,38,340,0.5,170,1855,630,1225,180,2386,28.1,0,SI,NA,0.8,0,,
Natural,Natural,20,59.7,38,340,0.5,170,1855,630,1225,180,2382,28.1,36.9,SI,NA,0.8,0,,
Natural,Natural,40,0,38,350,0.47,165,1915,690,1225,140,202,32.1,0,SI,NA,1,0,,
Natural,Natural,40,0,38,350,0.47,165,1915,690,1225,140,2401,32.1,40.7,SI,NA,1,0,,
Natural,Natural,20,73,38,335,0.52,175,1890,660,1230,170,2409,21.3,0,SP,NA,1.2,0,,
Natural,Natural,20,73,38,335,0.51,171,1890,660,1230,200,2410,27.7,0,SP,NA,1,0,,
Natural,Natural,20,73,38,335,0.51,171,1890,660,1230,200,2407,27.7,39.3,SP,NA,0,0,,
Natural,Natural,20,73,38,335,0.52,175,1890,660,1230,170,2406,21.5,28.4,SP,NA,0,0,,
Natural,Natural,40,36.5,38,350,0.51,180,1870,640,1230,85,2404,27.4,37.3,NA,NA,0,0,,
Natural,Natural,40,36.5,38,350,0.51,180,1870,640,1230,80,2400,27.4,0,NA,NA,0,0,,
Crushed,Natural,40,30.6,38,350,0.5,175,1890,660,1230,75,2415,30.8,37.8,NA,NA,0,0,,
Crushed,Natural,40,30.6,38,350,0.5,175,1890,660,1230,75,2417,30.8,0,NA,NA,0,0,,
Natural,Natural,40,47.2,38,350,0.5,180,1860,630,1230,110,2394,24,0,NA,NA,0,0,,
Natural,Natural,40,51.1,38,350,0.55,180,1865,635,1230,125,2394,21.5,0,NA,NA,0,0,,
Natural,Natural,40,56.8,38,350,0.51,180,1870,640,1230,190,2401,30.1,0,NA,NA,0,0,,
Natural,Natural,20,69.4,38,400,0.41,165,1835,605,1230,220,2404,30.2,0,SP,NA,1,0,,
Natural,Natural,40,26.2,38,310,0.5,155,1935,700,1235,170,2401,33,0,NA,NA,0,0,,
Natural,Natural,40,26.2,38,310,0.5,155,1935,700,1235,170,2405,33,37.2,SP,NA,1,0,,
Natural,Natural,40,79,38,350,0.5,175,1875,635,1240,200,2405,28.6,41.5,SP,NA,1,0,,
Natural,Natural,40,79,38,350,0.5,175,1875,635,1240,200,2406,28.6,0,SP,NA,1,0,,
Crushed,Natural,40,82,38,350,0.5,175,1915,675,1240,140,2447,30.9,37.5,SP,NA,1,0,,
Crushed,Natural,40,82,38,350,0.5,175,1915,675,1240,140,2445,30.9,0,SP,NA,0.75,0,,
Natural,Natural,40,45,38,350,0.51,180,1850,610,1240,130,2386,24.6,0,NA,NA,0,0,,
Natural,Natural,40,45,38,350,0.51,180,1850,610,1240,130,2387,24.6,37,NA,NA,0,0,,
Natural,Natural,40,90,38,350,0.5,175,1855,615,1240,85,2402,27.2,32.5,NA,NA,0,0,,
[...]
Natural,Natural,20,73,43,370,0.46,170,1860,670,1190,200,2394,35.7,38.2,SP,NA,1,0,,
Natural,Natural,20,73,43,365,0.48,175,1860,655,1205,170,2409,31.3,0,SP,NA,1.2,0,,
Natural,Natural,20,67.3,43,375,0.45,170,1845,645,1200,200,2390,38.6,48.3,RE,NA,1,0,,
Crushed,Natural,20,66.4,43,365,0.52,190,1870,710,1160,160,2627,31.1,44.2,BA,NA,1,0,,
Crushed,Natural,20,66,43,370,0.5,185,1895,760,1135,150,2455,35,44.8,RE,NA,0.75,0,,
Natural,Natural,40,66,43,360,0.46,165,1875,675,1200,155,2404,27.4,38.2,RE,NA,0.75,0,,
Crushed,Natural,20,65,43,410,0.44,180,1860,660,1200,210,2454,42.6,52.5,R2,NA,1.65,0,,
Crushed,Natural,20,64.7,43,375,0.49,185,1900,700,1200,95,2454,28.1,36.5,NA,NA,0,0,,
Natural,Natural,20,64.3,43,370,0.46,170,1850,650,1200,140,2394.1,35.3,44.1,PR,NA,1,0,,
Crushed,Natural,20,64,43,375,0.51,190,1885,695,1190,80,2432,25.6,30,NA,NA,0,0,,
Crushed,Natural,20,63,43,380,0.5,190,1880,715,1165,150,2455,37.9,0,NA,NA,0,0,,
Crushed,Natural,20,62.6,43,410,0.51,210,1805,630,1175,160,2427,31.6,0,NA,NA,0,0,,
Natural,Natural,20,62.2,43,400,0.46,185,1795,610,1185,155,2383,25.5,33.1,NA,NA,0,0,,
Natural,Natural,20,61.3,43,400,0.44,175,1805,685,1120,135,2388,25.9,0,NA,NA,0,0,,
Natural,Natural,20,61.3,43,365,0.44,160,1875,715,1160,170,2408,33,0,EU,NA,1,0,,
Natural,Natural,20,61.1,43,360,0.46,165,1875,695,1180,140,2404,34.1,45.3,EU,NA,1,0,,
Crushed,Natural,20,61,43,375,0.49,185,1900,725,1175,200,2461,45.9,54.3,EU,NA,1.25,0,,
Crushed,Natural,20,61,43,360,0.5,180,1920,710,1210,130,2465,42.3,49.5,EU,NA,1,0,,
Natural,Natural,20,60.6,43,375,0.48,175,1830,660,1170,100,2382,27,0,NA,NA,0,0,,
Crushed,Natural,20,60,43,375,0.48,190,1890,715,1175,160,2453,30.7,36.3,SP,NA,1.25,0,,
Natural,Natural,40,60,43,365,0.45,165,1870,655,1215,150,2405,30.2,36.9,SP,NA,1,0,,
Natural,Natural,40,59.5,43,350,0.48,168,1890,660,1230,90,2406,38,44.4,G,NA,0.75,0,,
Natural,Natural,40,58.9,43,375,0.48,180,1845,645,1200,150,2406,27.4,33.7,NA,NA,0,0,,
Natural,Natural,40,58.9,43,375,0.48,180,1845,645,1200,150,2406,27.4,0,NA,NA,0,0,,
Natural,Natural,40,58.7,43,370,0.46,170,1840,590,1250,75,2386,30,0,NA,NA,0,0,,
Natural,Natural,40,58.1,43,360,0.44,160,1870,675,1195,190,2399,37.3,0,CO,NA,1,0,,
Natural,Natural,40,58,43,385,0.47,180,1815,635,1180,100,2388,27.7,0,NA,NA,0,0,,
Natural,Natural,20,57.9,43,400,0.45,180,1810,780,1030,210,2401.5,33.1,0,SP,NA,1.25,0,,
Natural,Natural,20,57.9,43,365,0.45,165,1870,805,1065,210,2403,33.8,46.7,SP,NA,0.85,0,,
Natural,Natural,40,57.7,43,375,0.44,165,1860,690,1170,150,2403,36.7,43.4,SP,NA,1,0,,
Natural,Natural,20,57,43,360,0.46,165,1860,690,1170,200,2405,33.5,43.9,SP,NA,1,0,,
Natural,Natural,40,56.9,43,365,0.45,165,1870,675,1195,200,2405,36.2,0,EU,NA,1,0,,
Natural,Natural,40,56.9,43,365,0.45,165,1870,675,1195,165,2388,33,0,EU,NA,1,0,,
Crushed,Natural,20,56.4,43,375,0.48,180,1895,740,1155,180,2464,33.2,41.6,SP,NA,1,0,,
Natural,Natural,20,56.4,43,375,0.48,180,1845,685,1160,160,2454,32.2,40.6,SP,NA,0.75,0,,
Natural,Natural,20,56.3,43,400,0.54,215,1785,590,1195,110,2403,26.3,0,NA,NA,0,0,,
Natural,Natural,20,56,43,380,0.46,175,1825,675,1150,120,2385,28.8,35.6,NA,NA,0,0,,
Crushed,Natural,20,56,43,375,0.47,175,1910,725,1184,165,2435,26.8,34,RE,NA,1,0,,
Crushed,Natural,20,56,43,375,0.51,190,1885,695,1190,110,2384,28.1,0,NA,NA,0,0,,
Natural,Natural,40,55.9,43,370,0.46,170,1860,630,1230,120,2404,29.6,38.4,EU,NA,0.75,0,,
Natural,Natural,40,55.7,43,375,0.48,180,1845,665,1180,120,2405,29.1,38.3,NA,NA,0,0,,
Natural,Natural,40,55.6,43,350,0.46,160,1890,625,1265,100,2405,34.9,0,EU,NA,1,0,,
Natural,Natural,20,55,43,340,0.47,160,1900,760,1140,200,2395,37.3,0,SP,NA,1.45,0,,
Natural,Natural,20,55,43,340,0.47,160,1900,760,1140,195,2403,25.9,37.5,CO,SP,0.56,0.98,,
Crushed,Natural,20,54.9,43,375,0.51,190,1875,695,1180,130,2440.67,38.1,0,SI,SP,0.4,0.9,,
Natural,Natural,20,54.8,43,375,0.43,160,1865,750,1115,100,2444,34.9,0,NA,NA,0,0,,
Natural,Natural,40,54.7,43,375,0.47,180,1830,695,1135,170,2388,36.1,0,G,PL,1.4,1.88,,
Crushed,Natural,20,54.1,43,375,0.51,190,1885,715,1175,150,2456,22.2,28.7,SP,NA,1,0,,
Crushed,Natural,20,54.1,43,375,0.51,190,1885,680,1205,150,2455,34.9,42.5,NA,NA,0,0,,
Natural,Natural,40,54,43,375,0.48,180,1845,630,1215,120,2405,20.8,25.3,NA,NA,0,0,,
Crushed,Natural,40,53.9,43,400,0.5,200,1820,585,1235,125,2426,29.2,37.9,NA,NA,0,0,,
Crushed,Natural,20,53.5,43,375,0.48,180,1895,760,1135,150,2455,29.8,39.3,JY,NA,1.25,0,,
Crushed,Natural,20,53.2,43,375,0.51,190,1875,750,1125,95,2444,36.3,46.3,SI,NA,1.25,0,,
Natural,Natural,40,53.2,43,375,0.44,165,1845,700,1145,100,2404,27.7,0,SP,NA,1,0,,
Natural,Natural,40,53.2,43,375,0.44,165,1845,700,1145,100,2402,27.7,28.4,SP,NA,1,0,,
Crushed,Natural,20,52.7,43,370,0.52,190,1880,695,1185,170,2443,25.9,35.7,RE,NA,1,0,,
Natural,Natural,20,52.5,38,375,0.48,180,1845,700,1145,100,2405,21.9,31.2,NA,NA,0,0,,
Natural,Natural,20,52.2,43,375,0.48,180,1825,675,1150,200,2386,37.2,34.6,CO,NA,0.7,0,,
Natural,Natural,40,52.2,43,350,0.46,160,1890,625,1265,120,2406,32.4,39.8,SU,NA,1,0,,
Crushed,Natural,20,52,43,375,0.48,180,1895,760,1135,180,2454.67,33.6,0,SP,NA,1.25,0,,
Crushed,Natural,20,52,43.1,385,0.51,195,1850,685,1165,90,2434,24.8,0,NA,NA,0,0,,
Crushed,Natural,20,51.8,43,390,0.51,215,1840,715,1125,120,2430.3,30.7,0,NA,NA,0,0,,
Crushed,Natural,20,51.8,43,360,0.49,185,1905,745,1150,170,2457.3,37,0,SP,NA,0.9,0,,
Crushed,Natural,40,51.8,43,365,0.44,160,1875,715,1160,150,2405,35.2,47.5,EU,NA,1,0,,
Natural,Natural,40,51.6,43,350,0.46,160,1890,720,1170,60,2388,27,32.8,NA,NA,0,0,,
Crushed,Natural,20,51.5,43,380,0.42,160,1900,855,1045,100,2445,36.6,0,SP,NA,1,0,,
Natural,Natural,20,51.4,43,375,0.44,165,1865,710,1155,200,2403,34.1,0,RE,NA,1.1,0,,
Natural,Natural,40,51,43,375,0.45,170,1855,705,1100,150,2406,35.2,41.4,SP,NA,1,0,,
Natural,Natural,40,51,43,375,0.45,170,1855,705,1100,150,2406,31,0,SP,NA,1,0,,
Natural,Natural,40,50.8,43,350,0.46,160,1890,680,1210,80,2408,38.9,0,CI,NA,0.75,0,,
Natural,Natural,40,50.5,43,340,0.47,160,1900,760,1140,160,2407,31.5,37.5,SI,NA,1,0,,
Crushed,Natural,20,50.1,43,375,0.48,180,1895,700,1125,200,2458,33.5,42.5,RE,NA,1.5,0,,
Crushed,Natural,20,50.1,43,375,0.51,190,1855,755,1130,100,2455,34.1,0,NA,NA,0,0,,
Crushed,Natural,20,50.1,43,380,0.45,180,1880,695,1135,200,2461,34.4,43,NA,NA,0,0,,
Crushed,Natural,20,50.1,43,375,0.48,180,1895,700,1195,200,2454,33.5,0,RE,NA,0.75,0,,
Natural,Natural,20,50,43,360,0.47,170,1870,748,1122,190,2405,37.8,46.4,NA,NA,0,0,,
Natural,Natural,20,50,43,350,0.46,160,1890,715,1175,220,2405,31.4,39.4,SD,NA,1,0,,
Crushed,Natural,20,49.5,43,400,0.45,180,1845,590,1255,170,2442,35.7,49,SP,NA,1,0,,
Crushed,Natural,20,49.2,43,375,0.49,185,1900,760,1140,175,2465,28.3,0,EU,NA,1,0,,
Natural,Natural,20,49.2,43,365,0.47,170,1865,655,1210,160,2403,33.2,0,SP,NA,1,0,,
Crushed,Natural,40,49.1,43,375,0.49,185,1890,720,1170,175,2454,33.3,0,SP,NA,1,0,,
Natural,Natural,40,49,43,360,0.47,170,1870,730,1140,230,2407,41.8,0,SP,NA,1,0,,
Natural,Natural,40,49,43,370,0.46,170,1860,645,1215,120,2405,24.4,32.8,EU,NA,1,0,,
Crushed,Natural,20,48.9,43,365,0.51,185,1900,780,1128,170,2455,28.9,40.1,SP,NA,1,0,,
Natural,Natural,20,48.5,43,350,0.48,180,1870,730,1140,205,2407,32.8,40.4,SP,NA,1,0,,
Natural,Natural,40,48.5,43,365,0.44,160,1875,695,1180,130,2404,38.4,45.6,RE,NA,0.75,0,,
Crushed,Natural,20,48.3,43,375,0.51,190,1885,715,1170,170,2455,20.7,0,SP,NA,1,0,,
Natural,Natural,20,48.3,43,365,0.46,170,1865,650,1215,190,2404,32.9,41.2,SP,NA,0.75,0,,
Crushed,Natural,40,48.1,43,375,0.49,185,1890,760,1130,200,2454,35.7,0,SP,NA,1,0,,
Natural,Natural,40,48.1,43,375,0.45,190,1855,685,1170,200,2403,33.7,41.1,SP,NA,1,0,,
Natural,Natural,20,48,43,400,0.45,180,1805,725,1080,230,2389,30.3,0,RE,NA,1.25,0,,
Natural,Natural,40,47.2,43,375,0.48,180,1825,600,1225,110,2386,28,0,NA,NA,0,0,,
Crushed,Natural,20,47.1,43,370,0.51,185,1900,815,1085,175,2453,38.5,0,SP,NA,1,0,,
Crushed,Natural,20,47,43,365,0.49,180,1905,740,1165,150,2465,39.8,48.9,NA,NA,1,0,,
Natural,Natural,40,47,43,375,0.44,165,1865,655,1210,170,2403,32.2,38.3,RE,NA,0.75,0,,
Crushed,Natural,20,46.5,43,400,0.44,175,1875,750,1120,185,2459,0,0,SP,NA,1,0,,
Crushed,Natural,20,46.5,43,400,0.44,175,1875,750,1125,185,2453,31.4,41.6,SP,NA,1,0,,
Crushed,Natural,20,46.5,43,375,0.6,225,1895,760,1134,160,2455,21,0,NA,NA,0,0,,
Natural,Natural,40,46.2,43,385,0.47,180,1815,635,1180,110,2384,29.4,39.4,NA,NA,0,0,,
Natural,Natural,40,46.2,43,375,0.45,170,1855,655,1190,200,2405,35.3,40.8,SP,NA,1,0,,
Crushed,Natural,40,46.1,43,375,0.48,180,1845,665,1180,120,2406,26.3,33,NA,NA,0,0,,
Crushed,Natural,20,45.8,43,375,0.51,190,1885,755,1130,110,2453,29.1,0,NA,NA,0,0,,
Crushed,Natural,20,45.6,43,365,0.51,185,1900,700,1200,160,2455,36.8,0,SP,NA,1,0,,
Natural,Natural,20,45.6,43,350,0.47,165,1885,680,1205,200,2401,31.3,0,SP,NA,1,0,,
Crushed,Natural,20,44.5,43,375,0.49,185,1890,760,1130,120,2453,24.7,37.2,NA,NA,0,0,,
Natural,Natural,40,44,43,350,0.48,168,1882,755,1127,195,2405,39.1,0,SP,NA,1,0,,
Crushed,Natural,20,44,43,375,0.49,185,1890,755,1135,105,2454,27.4,36.4,NA,NA,0,0,,
Natural,Natural,40,44,43,375,0.47,175,1850,630,1220,150,2406,24.8,0,NA,NA,0,0,,
Crushed,Natural,20,43.9,43,375,0.51,190,1885,700,1185,140,2456,31.9,0,NA,NA,0,0,,
Natural,Natural,40,43.7,43,375,0.47,175,1830,660,1170,115,2387,26.9,37.2,NA,NA,0,0,,
Crushed,Natural,20,43.6,43,375,0.44,190,1855,700,1185,150,2454,32,46.6,NA,NA,0,0,,
Natural,Natural,40,43.6,43,365,0.47,170,1865,655,1210,200,2405,36.4,0,EU,NA,0.75,0,,
Crushed,Natural,20,43.5,43,365,0.45,165,1940,815,1125,140,2478,37.4,0,SP,NA,1,0,,
Natural,Natural,40,43.4,43,400,0.45,180,1820,800,1020,200,2403,39.4,0,SP,NA,3,0,,
Crushed,Natural,20,43,43,375,0.49,185,1880,695,1175,170,2445,38.3,0,SP,NA,1,0,,
Crushed,Natural,20,43,43,375,0.49,185,1880,695,1185,170,2444,38.3,50.6,SP,NA,1,0,,
Crushed,Natural,20,43,43,360,0.5,180,1910,710,1200,130,2454.3,31.1,0,EU,NA,1,0,,
Crushed,Natural,20,43,43,360,0.5,180,1910,710,1200,130,2455,31.1,44.8,EU,NA,1,0,,
Crushed,Natural,20,42.9,43,365,0.52,190,1870,820,1050,160,2429.5,29.6,41.5,RE,NA,1.25,0,,
Crushed,Natural,20,42.9,43,400,0.47,190,1860,800,1060,200,2452,38.2,0,S.,NA,1.25,0,,
Natural,Natural,20,42.9,40.4,400,0.4,160,1840,735,1105,160,2443,30.2,0,SP,NA,0.75,0,,
Crushed,Natural,20,42.9,43,365,0.49,180,1895,780,1115,220,2442,35.9,0,RE,NA,1.25,0,,
Natural,Natural,40,42.9,43,350,0.47,165,1885,700,1185,205,2403,34.6,42.2,RE,NA,1,0,,
Natural,Natural,40,42.6,43,375,0.48,180,1835,680,1150,140,2393,32.8,0,NA,NA,0,0,,
Natural,Natural,20,42.6,43,385,0.47,180,1815,655,1160,95,2386,25.9,0,NA,NA,0,0,,
Natural,Natural,40,42.6,43,360,0.44,160,1880,700,1180,165,2407,30.6,0,JY,NA,4.5,0,,
Natural,Natural,40,42.4,43,375,0.48,180,1845,665,1180,130,2405,27.5,0,NA,NA,0,0,,
Crushed,Natural,20,42.3,43,375,0.51,190,1875,715,1160,195,2447,41.9,0,KE,NA,1,0,,
Natural,Natural,40,42.2,43,375,0.48,180,1845,665,1180,130,2405,27.5,35.3,NA,NA,0,0,,
Natural,Natural,40,42.1,43,375,0.48,180,1825,640,1185,140,2385.5,30.3,0,NA,NA,0,0,,
Crushed,Natural,20,42.1,43,365,0.52,190,1885,735,1250,200,2445,37.9,0,RH,NA,1.25,0,,
Natural,Natural,20,42,43,365,0.44,160,1875,695,1180,195,2401.3,27.7,0,RE,NA,0.75,0,,
Crushed,Natural,20,41.9,43,375,0.48,185,1895,795,1100,180,2455,44.2,0,NA,NA,1.4,0,,
Natural,Natural,20,41.9,43,360,0.46,170,1885,750,1135,150,2414,41.2,0,NA,NA,1.2,0,,
Crushed,Natural,20,41.6,43,375,0.49,185,1890,720,1170,175,2455,24.8,0,NA,NA,0,0,,
Natural,Natural,40,41.6,43,375,0.48,180,1905,665,1180,100,2405,27.8,0,NA,NA,0,0,,
Crushed,Natural,20,41.4,43,375,0.49,185,1890,830,1160,150,2455,36.3,0,RE,NA,1.25,0,,
Crushed,Natural,20,41.4,43,375,0.49,185,1890,830,1160,150,2456,36.3,45.2,RE,NA,1.25,0,,
Crushed,Natural,20,41,43,360,0.51,185,1855,795,1100,80,2442,33.9,41.7,NA,NA,0,0,,
Natural,Natural,40,41,43,375,0.43,160,1865,675,1190,130,2406.3,28.8,0,SP,NA,0.75,0,,
Natural,Natural,40,41,43,375,0.43,160,1865,675,1190,130,2406,28.8,35.7,SP,NA,1,0,,
Crushed,Natural,20,40.7,43,375,0.51,190,1885,755,1130,100,2456,24.6,0,NA,NA,0,0,,
Crushed,Natural,20,40.3,43,375,0.49,185,1890,755,1135,0,2455,32,0,SP,NA,1,0,,
Crushed,Natural,20,39.7,43,375,0.49,185,1890,690,1200,100,2454,33.1,0,NA,NA,0,0,,
Natural,Natural,40,39.4,43,350,0.48,168,1882,755,1127,180,2407,34.1,0,SP,NA,1,0,,
Natural,Natural,40,39,43,375,0.48,180,1845,665,1180,100,2403,27.8,0,NA,NA,0,0,,
Natural,Natural,40,39,43,375,0.44,165,1860,630,1230,130,2403.5,32.6,38.4,EU,NA,1,0,,
Crushed,Natural,20,38.7,43,385,0.49,190,1890,815,1075,170,2466,34,43.6,CA,NA,1.4,0,,
Natural,Natural,40,38.6,43,365,0.48,175,1860,750,1110,150,2402,26.1,42.2,CC,NA,0,0,,
Natural,Natural,40,38.5,43,375,0.48,180,1845,645,1200,90,2405,31.7,38.9,NA,NA,0,0,,
Crushed,Natural,20,38.3,43,375,0.49,185,1890,755,1135,130,2455,30.5,38.2,NA,NA,0,0,,
Natural,Natural,40,38,43,350,0.46,160,1890,710,1180,150,2401,33.5,41.8,SP,NA,0.75,0,,
Natural,Natural,20,37.9,43,400,0.44,175,1825,805,1020,175,2413,28,41.7,SP,NA,1.25,0,,
Natural,Natural,40,37.9,43,350,0.48,168,1872,750,1122,200,2394,36.5,0,EU,NA,0.75,0,,
Natural,Natural,20,37.7,43,360,0.46,165,1865,785,1080,170,2394,40,44.2,RE,NA,0.75,0,,
Natural,Natural,20,37.7,43,360,0.46,165,1865,785,1080,170,2394,40,0,RE,NA,0.75,0,,
Natural,Natural,40,37.1,43,375,0.48,180,1845,665,1180,120,2407,31,0,NA,NA,0,0,,
Crushed,Natural,20,37,43,375,0.41,190,1885,775,1110,90,2456,25.6,31.5,NA,NA,0,0,,
Natural,Natural,40,36.9,43,375,0.48,180,1825,640,1185,125,2396,25.5,34.2,NA,NA,0,0,,
Natural,Natural,40,36.9,43,375,0.48,180,1825,640,1185,85,2385,25,34.1,NA,NA,0,0,,
Natural,Natural,40,36.9,43,375,0.48,180,1825,640,1185,85,2385,25,25,NA,NA,0,0,,
Crushed,Natural,20,36.9,43,375,0.49,185,1890,680,1210,150,2454,25.1,36.8,SP,NA,3.75,0,,
Natural,Natural,40,36.5,43,375,0.48,180,1845,625,1120,100,2404.3,30.3,0,NA,NA,0,0,,
Crushed,Natural,20,36.5,43,365,0.51,185,1900,795,1150,150,2451,36,0,SP,NA,1,0,,
Crushed,Natural,20,34.8,38.5,400,0.44,175,1835,770,1065,200,2458,29.9,0,SP,NA,0.75,0,,
Crushed,Natural,20,34.8,38.5,400,0.42,168,1860,780,1080,200,2470,29.6,0,SP,NA,0.75,0,,
Crushed,Natural,20,34.8,38.5,450,0.33,150,1880,750,1130,215,2481,37.1,0,SP,NA,0.75,0,,
Natural,Natural,20,34.4,43,400,0.54,215,1785,624,1160,145,2426.5,39,0,NA,NA,0,0,,
Crushed,Natural,40,34.2,43,350,0.53,185,1915,765,1150,140,2453.5,27,0,RE,NA,0.8,0,,
Crushed,Natural,20,34,43,375,0.51,190,1185,735,1150,120,2444,24.6,31.8,NA,NA,0,0,,
Crushed,Natural,40,34,43,400,0.4,180,1895,695,1200,200,2467,28.7,0,EU,NA,1.25,0,,
Crushed,Natural,20,33.8,43,375,0.48,180,1875,770,1105,200,2444,36.5,0,NA,NA,0,0,,
Natural,Natural,20,33.7,43,350,0.48,168,1882,755,1127,190,2406,36.1,0,SP,NA,1,0,,
Crushed,Natural,20,33.4,43,400,0.45,180,1880,780,1100,120,2459,41.4,51.5,CO,RP,1,0.5,,
Natural,Natural,40,33.4,43,375,0.44,165,1860,670,1190,180,2404,31.7,34.3,RE,NA,1,0,,
Crushed,Natural,20,33.2,43,375,0.49,185,1890,700,1190,150,2453,29.4,0,SP,NA,3.75,0,,
Natural,Natural,40,33.1,43,360,0.46,165,1875,715,1160,180,2392,29.4,0,SP,NA,1,0,,
Natural,Natural,40,33.1,43,360,0.46,165,1875,715,1160,180,2395,29.4,32.2,SP,NA,1,0,,
Crushed,Natural,20,33.1,43,375,0.51,190,1885,680,1205,110,2453,33.7,0,NA,NA,0,0,,
Natural,Natural,40,33,43,375,0.45,170,1900,750,1150,70,2447,35.6,43.2,NA,NA,3,0,,
Natural,Natural,40,32.8,43,375,0.47,175,1860,700,1160,125,2409,32.5,0,SI,NA,3,0,,
Natural,Natural,40,32.8,43,375,0.47,175,1860,700,1160,125,2407,32.5,39.7,SI,NA,3,0,,
Natural,Natural,20,32.8,43,375,0.48,180,1845,665,1180,150,2404,24.8,32.9,NA,NA,0,0,,
Natural,Natural,40,32.7,43,350,0.47,165,1880,670,1210,190,2396,25.5,31.3,RE,LC,1,0.5,,
Natural,Natural,40,32.2,43,375,0.48,180,1845,685,1160,90,2403,29.5,0,NA,NA,0,0,,
Natural,Natural,40,32.2,43,375,0.48,180,1845,685,1160,90,2405,29.5,33.3,NA,NA,0,0,,
Natural,Natural,20,31.9,43,350,0.47,165,1870,750,1120,210,2402,42.1,0,SP,NA,1,0,,
Natural,Natural,20,31.3,43,365,0.45,165,1870,730,1140,165,2406,35.4,43.3,BU,NA,1,0,,
Crushed,Natural,20,31.3,43,375,0.48,180,1895,740,1155,200,2455,40.9,0,SP,NA,1,0,,
Natural,Natural,40,31.3,43,360,0.45,160,1880,715,1165,125,2403,33.1,0,RE,NA,0.75,0,,
Crushed,Natural,20,31,43,375,0.49,185,1890,795,1095,190,2453.3,41.1,0,SP,NA,1,0,,
Crushed,Natural,20,30.7,43,375,0.49,185,1890,815,1075,150,2457,38.6,45.3,SP,NA,3.75,0,,
Crushed,Natural,20,30.7,43,375,0.51,190,1895,775,1120,190,2454.3,26.8,0,FL,NA,4.88,0,,
Crushed,Natural,20,30.7,43,375,0.51,190,1895,775,1120,190,2454,26.8,33.9,FO,SP,1.75,0.75,,
Natural,Natural,40,30.6,43,375,0.45,170,1855,650,1205,135,2404.3,35.1,0,SP,NA,1,0,,
Crushed,Natural,20,30.4,43,385,0.52,200,1840,756,1075,115,2428,32.8,0,NA,NA,0,0,,
Crushed,Natural,20,30.4,43,365,0.51,185,1900,800,1200,135,2454,35.4,42.5,SP,NA,2.5,0,,
Crushed,Natural,20,30.2,43,375,0.49,185,1890,740,1150,150,2457,29.5,41.9,SP,NA,1,0,,
Natural,Natural,40,30,43,375,0.48,175,1840,700,1140,120,2394,31.1,38.7,NA,NA,0,0,,
Natural,Natural,20,29.8,43,370,0.46,170,1850,740,1110,185,2393,33.4,0,R,RX,1,0.5,,
Crushed,Natural,20,29.7,43,375,0.48,180,1895,740,1155,150,2456,27.3,34.1,SP,NA,1,0,,
Crushed,Natural,20,29.1,43.1,385,0.48,215,1810,815,995,70,2413.6,22.3,29.5,NA,NA,0,0,,
Crushed,Natural,20,29.1,43,375,0.51,190,1855,680,1205,100,2453,30.7,37.1,NA,NA,0,0,,
Natural,Natural,40,27.9,43,375,0.48,180,1845,665,1180,130,2404,28,0,NA,NA,0,0,,
Natural,Natural,20,27.4,43,375,0.48,180,1845,700,1145,100,2405,27.9,0,NA,NA,0,0,,
Crushed,Natural,20,26.4,43,400,0.42,185,1871,842,1029,200,2444,36.4,0,SP,NA,1,0,,
Natural,Natural,40,26.4,43,375,0.48,180,1845,665,1180,110,2403,31,38.6,NA,NA,0,0,,
Natural,Natural,40,26.2,43,350,0.47,165,1885,685,1200,190,2403,35.6,0,SP,NA,1,0,,
Crushed,Natural,40,26,43,400,0.5,200,1820,725,1096,110,2423,37.7,0,NA,NA,0,0,,
Natural,Natural,20,25,43,350,0.47,165,1885,715,1170,180,2404,34.3,0,SP,NA,1,0,,
Crushed,Natural,20,24.9,43,370,0.51,190,1880,715,1165,120,2446,35.9,0,RH,NA,1,0,,
Crushed,Natural,20,24.5,43,375,0.51,190,1885,760,1125,175,2457,30.5,0,SP,NA,3.5,0,,
Natural,Natural,40,24.4,43,355,0.48,170,1865,745,1120,170,2393,35.5,44.1,EU,NA,0.75,0,,
Natural,Natural,40,24.1,43,350,0.48,170,1870,785,1085,210,2400,36.9,43.3,RH,NA,3.5,0,,
Natural,Natural,20,24.1,43,300,0.48,145,1980,830,1150,80,2423,34.7,43.2,RH,NA,3,0,,
Crushed,Natural,20,24,43,375,0.49,185,1890,795,1095,170,2455,38.7,47.2,EU,NA,1,0,,
Natural,Natural,40,24,43,365,0.44,160,1875,695,1180,140,2405,33.7,46,EU,NA,1,0,,
Natural,Natural,20,23.5,43,365,0.48,175,1840,660,1062,150,2385,25.8,38.2,NA,NA,0,0,,
Natural,Natural,20,21,43,400,0.45,170,1855,725,1130,200,2406,34.6,0,SP,NA,1,0,,
Natural,Natural,20,21,43,400,0.45,170,1855,725,1130,200,2407,34.6,41.5,SP,NA,1,0,,
Crushed,Natural,20,21,43,375,0.49,185,1890,720,1170,140,2450,30.7,40.6,RE,NA,1.4,0,,
Natural,Natural,20,19.5,43,400,0.45,180,1800,774,1026,220,2391,34.6,0,SP,NA,0.75,0,,
Natural,Natural,20,19.5,43,350,0.47,165,1885,811,1074,210,2508,28.3,37.4,SP,NA,0.75,0,,
Natural,Natural,40,19.5,43,375,0.45,170,1855,670,1185,95,2406,31.3,36.1,NA,NA,0,0,,
Natural,Natural,40,19.2,43,375,0.44,165,1860,650,1210,190,2401,32.6,0,NA,NA,1.2,0,,
Natural,Natural,40,19.2,43,375,0.44,165,1860,650,1210,190,2402,32.6,46.7,NA,NA,1.2,0,,
Natural,Natural,20,19,43,375,0.48,180,1850,700,1150,130,2403.3,27.2,34.5,NA,NA,0,0,,
Natural,Natural,40,17.1,43,375,0.46,170,1855,670,1185,100,2404,24.6,0,NA,NA,0,0,,
Natural,Natural,40,17,43,375,0.44,165,1860,690,1170,165,2405,30.4,37.5,SP,NA,0.75,0,,
Natural,Natural,40,14.9,43,375,0.48,180,1845,700,1140,100,2404,22.4,0,NA,NA,0,0,,
Crushed,Natural,40,14.7,43,375,0.48,180,1845,685,1160,180,2405,26.1,0,SP,NA,1,0,,
Natural,Natural,20,48,43,400,0.45,180,1305,725,1080,230,2386,30.3,34.5,R,NA,1.25,0,,
Crushed,Natural,20,33.8,43,375,0.48,180,1875,770,1105,200,2442.7,36.5,46.6,RH,NA,0.8,0,,
Crushed,Natural,20,54.9,43,375,0.51,190,1875,695,1180,130,2444,38.1,51.2,SI,SI,0.4,0.9,,
Natural,Natural,20,48,43,400,0.45,180,1805,725,1080,230,2385,34.5,45.5,RH,NA,1.25,0,,
Crushed,Natural,20,63.1,43,375,0.52,195,1860,570,1200,160,2435,41,50.7,NA,NA,1.25,0,,
Natural,Natural,40,4804,43,350,0.48,168,1870,730,1140,205,2407,37.9,0,SP,NA,1,0,,
Natural,Natural,20,0,43,375,0.45,170,1860,700,1160,170,2407,36.1,0,DO,NA,2.3,0,,